# Auto-generated by synadam::generate_study_config().
# Fields marked REVIEW were inferred with low confidence -
# verify them before running simulate_study().

output_dir: "<TEMPLATE_OUTPUT_DIR>"
seed: 42

datasets:
  adlb:
    dataset_type: "bds"
    path: "<TEMPLATE_PATH>/adlb.sas7bdat"
    id_cols: [USUBJID, SUBJID]
    param_cols: [PARAM, PARAMCD, PARCAT1, PARCAT2, PARCAT3]  # REVIEW: auto-included PARCAT* (PARCAT1, PARCAT2, PARCAT3); remove if undesired
    visit_cols: [AVISIT, AVISITN, VISIT, VISITNUM]  # REVIEW: visit_cols are optional
    flag_cols: [RANDFL, FASFL, SAFFL, ABLFL, ANL01FL, ANL02FL, ANL03FL, ONTRTFL, PSTBSPFL]  # REVIEW: matched *FL pattern
    ordered_col_sets:  # REVIEW: X/XN/XL groups detected
      - [ATOXGR, ATOXGRN]
      - [BTOXGR, BTOXGRN]
      - [TRTA, TRTAN]
      - [TRTP, TRTPN]

  adpr:
    dataset_type: "occds"
    path: "<TEMPLATE_PATH>/adpr.sas7bdat"
    id_cols: [USUBJID, SUBJID]
    seq_col: PRSEQ
    flag_cols: [RANDFL, FASFL, SAFFL, PREFL, ONTRTFL]  # REVIEW: matched *FL pattern
    ordered_col_sets:  # REVIEW: X/XN/XL groups detected
      - [TRTA, TRTAN]

  adrisk:
    dataset_type: "occds"
    path: "<TEMPLATE_PATH>/adrisk.sas7bdat"
    id_cols: [USUBJID, SUBJID]
    seq_col: AESEQ
    flag_cols: [RANDFL, FASFL, SAFFL, TRTEMFL, AOCCFL, AOCCSFL, AOCCHGFL, AOCCHFL, AOCCPFL, SPPFL, DSURFL, RMPFL, PSURFL, IBFL, ADRFL, OTHSRFL, MISINFFL, EXPRULFL, ADRUSIFL, ADRJPIFL, UNDISFL, AESIFL, MHFL]  # REVIEW: matched *FL pattern
    ordered_col_sets:  # REVIEW: X/XN/XL groups detected
      - [AESEV, AESEVN]
      - [TRTA, TRTAN]

  adsl:
    dataset_type: "adsl"
    path: "<TEMPLATE_PATH>/adsl.sas7bdat"
    id_cols: [USUBJID, SUBJID]
    treatment_cols: [ACTARM, ACTARMCD, ARM, ARMCD, TRTSEQP, TRTSEQA, TRT01P, TRT01PN, TRT01A, TRT01AN]
    flag_cols: [SCRNFL, RANDFL, FASFL, SCFAILFL, SAFFL, ESCPFL, RSCUFL, PMRFL]  # REVIEW: matched *FL pattern
    ordered_col_sets:  # REVIEW: X/XN/XL groups detected
      - [AGEGR1, AGEGR1N]
      - [AGEGR2, AGEGR2N]

