# Auto-generated by synadam::generate_study_config().
# Fields marked REVIEW were inferred with low confidence -
# verify them before running simulate_study().

output_dir: "<TEMPLATE_OUTPUT_DIR>"
seed: 42

datasets:
  adae:
    dataset_type: "occds"
    path: "<TEMPLATE_PATH>/adae.sas7bdat"
    id_cols: [USUBJID, SUBJID]
    seq_col: AESEQ
    flag_cols: [FASFL, SAFFL, TRTEMFL, AOCCFL, AOCC91FL, AOCC92FL, AOCC93FL, AOCCSFL, ANL01FL]  # REVIEW: matched *FL pattern
    ordered_col_sets:  # REVIEW: X/XN/XL groups detected
      - [TRTP, TRTPN, TRTPL]
      - [TRTA, TRTAN, TRTAL]
      - [AESER, AESERN, AESERL]
      - [AETOXGR, AETOXGRN, AETOXGRL]
      - [AEOUT, AEOUTN, AEOUTL]

  adeg:
    dataset_type: "bds"
    path: "<TEMPLATE_PATH>/adeg.sas7bdat"
    id_cols: [USUBJID, SUBJID]
    param_cols: [PARAM, PARAMCD, PARCAT1]  # REVIEW: auto-included PARCAT* (PARCAT1); remove if undesired
    visit_cols: [AVISIT, AVISITN, VISIT, VISITNUM]  # REVIEW: visit_cols are optional
    flag_cols: [SAFFL, FASFL, ABLFL, ANL01FL, ONTRTFL, CRIT1FL, CRIT2FL, CRIT3FL, CRIT4FL, CRIT5FL]  # REVIEW: matched *FL pattern
    ordered_col_sets:  # REVIEW: X/XN/XL groups detected
      - [ATPT, ATPTN]
      - [TRTP, TRTPN]
      - [TRTA, TRTAN]

  adex:
    dataset_type: "bds"
    path: "<TEMPLATE_PATH>/adex.sas7bdat"
    id_cols: [USUBJID]
    param_cols: [PARAM, PARAMCD]
    visit_cols: []
    flag_cols: [SAFFL, FASFL]  # REVIEW: matched *FL pattern
    ordered_col_sets: []

  adlb:
    dataset_type: "bds"
    path: "<TEMPLATE_PATH>/adlb.sas7bdat"
    id_cols: [USUBJID]
    param_cols: [PARAM, PARAMCD, PARCAT1, PARCAT2]  # REVIEW: auto-included PARCAT* (PARCAT1, PARCAT2); remove if undesired
    visit_cols: [AVISIT, AVISITN, VISIT, VISITNUM]  # REVIEW: visit_cols are optional
    flag_cols: [FASFL, SAFFL, ABLFL, ONTRTFL, PSTBLFL, ANL01FL, ANL02FL]  # REVIEW: matched *FL pattern
    ordered_col_sets:  # REVIEW: X/XN/XL groups detected
      - [ATOXGR, ATOXGRN]
      - [BTOXGR, BTOXGRN]

  adpp:
    dataset_type: "bds"
    path: "<TEMPLATE_PATH>/adpp.sas7bdat"
    id_cols: [USUBJID]
    param_cols: [PARAM, PARAMCD, PARCAT1]  # REVIEW: auto-included PARCAT* (PARCAT1); remove if undesired
    visit_cols: [AVISIT, AVISITN]  # REVIEW: visit_cols are optional
    flag_cols: [SAFFL, FASFL, PKFL, FPKFL, ANL01FL]  # REVIEW: matched *FL pattern
    ordered_col_sets: []

  adrecist:
    dataset_type: "bds"
    path: "<TEMPLATE_PATH>/adrecist.sas7bdat"
    id_cols: [USUBJID, SUBJID]
    param_cols: [PARAM, PARAMCD]
    visit_cols: [AVISIT, AVISITN, VISIT, VISITNUM]  # REVIEW: visit_cols are optional
    flag_cols: [SAFFL, FASFL, ABLFL, ANL01FL, ANL03FL, ANL04FL, ANL05FL]  # REVIEW: matched *FL pattern
    ordered_col_sets:  # REVIEW: X/XN/XL groups detected
      - [TRLNKID, TRLNKIDN]
      - [TRGRPID, TRGRPIDN]

  adsl:
    dataset_type: "adsl"
    path: "<TEMPLATE_PATH>/adsl.sas7bdat"
    id_cols: [USUBJID, SUBJID]
    treatment_cols: [ACTARM, ACTARMCD, ARM, ARMCD, TRT01P, TRT01PL, TRT01PN, TRT01A, TRT01AN, TRT01AL]
    flag_cols: [SCFAILFL, SAFFL, FASFL, DDSFL, DTHONTFL]  # REVIEW: matched *FL pattern
    ordered_col_sets:  # REVIEW: X/XN/XL groups detected
      - [AGEGR1, AGEGR1N]
      - [RACE, RACEL]
      - [SEX, SEXL]
      - [EXPCAT, EXPCATN]
      - [ETHNIC, ETHNICN, ETHNICL]
      - [EOTSTT, EOTSTTN, EOTSTTL]

  advs:
    dataset_type: "bds"
    path: "<TEMPLATE_PATH>/advs.sas7bdat"
    id_cols: [USUBJID, SUBJID]
    param_cols: [PARAM, PARAMCD]
    visit_cols: [AVISIT, AVISITN]  # REVIEW: visit_cols are optional
    flag_cols: [ANL02FL, PSTBLFL, ABLFL, ANL01FL, CRIT1FL, CRIT2FL, ONTRTFL, SAFFL, FASFL]  # REVIEW: matched *FL pattern
    ordered_col_sets: []

